Folder: physics_labs/solar

Note: README.md
# Physics Labs

This repository contains physics labs from my Physics 4C class at Evergreen Valley College. Programming was not required as part of these assignments, but I created python programs anyways to aid in analyzing data that was collected using a Vernier LabQuest 2. 

Each folder corresponds to its respective lab and contains a python program, lab data in a csv file, and a lab report pdf.

File: solar.csv
"Remote Data: Wavelength (nm)","Remote Data: Intensity (rel)"
350.2,0.0605783
352.2,0.0611887
354.1,0.0679942
356,0.071931
357.9,0.0655833
359.8,0.0735332
361.8,0.0687419
363.7,0.0874189
365.6,0.0996719
367.5,0.10724
369.4,0.112383
371.3,0.113344
373.3,0.0989242
375.2,0.113191
377.1,0.143847
379,0.134081
380.9,0.14316
382.8,0.100649
384.8,0.150347
386.7,0.150698
388.6,0.171176
390.5,0.21236
392.4,0.136172
394.3,0.221042
396.3,0.153567
398.2,0.319005
400.1,0.341115
402,0.37821
403.9,0.34461
405.8,0.36144
407.8,0.407568
409.7,0.391363
411.6,0.446387
413.5,0.448203
415.4,0.469581
417.4,0.453437
419.4,0.462486
421.4,0.465064
423.4,0.500832
425.4,0.489631
427.4,0.486687
429.4,0.386572
431.4,0.5514
433.4,0.507179
435.4,0.607355
437.4,0.568536
439.4,0.602594
441.4,0.652445
443.4,0.6692
445.4,0.636988
447.4,0.712245
449.4,0.753307
451.4,0.747387
453.4,0.765148
455.3,0.781125
457.3,0.793744
459.2,0.773892
461.2,0.821683
463.2,0.813794
465.1,0.805737
467.1,0.807996
469.1,0.807523
471,0.82977
473,0.814206
474.9,0.833753
476.9,0.864881
478.9,0.887953
480.8,0.898116
482.8,0.898802
484.8,0.830579
486.7,0.847349
488.7,0.891295
490.6,0.903929
492.6,0.923079
494.6,0.92224
496.5,0.938674
498.5,0.921981
500.4,0.86006
502.4,0.864637
504.4,0.907713
506.3,0.901289
508.3,0.919249
510.2,0.929595
512.2,0.904631
514.2,0.915099
516.1,0.783795
518.1,0.879927
520.1,0.911849
522,0.897124
524,0.920165
525.9,0.816938
527.9,0.938811
529.9,0.951247
531.8,0.867231
533.8,0.922698
535.8,0.888563
537.8,0.914183
539.8,0.853101
541.8,0.89276
543.8,0.897704
545.8,0.895064
547.8,0.885527
549.8,0.864073
551.8,0.846754
553.9,0.869001
555.9,0.82533
557.9,0.772992
559.9,0.80853
561.9,0.798184
563.9,0.817853
565.9,0.797269
567.9,0.775784
570,0.771984
572,0.783444
574,0.774762
576,0.758267
578,0.763378
580,0.788128
582,0.810224
584,0.811978
586.1,0.793805
588.1,0.734661
590.1,0.767102
592.1,0.780758
594,0.777707
596,0.81149
598,0.805249
600,0.820157
602,0.822766
604,0.856779
606,0.87602
608,0.857008
609.9,0.860914
611.9,0.849943
613.9,0.851575
615.9,0.844877
617.9,0.870451
619.9,0.857755
621.9,0.833051
623.9,0.830243
625.8,0.791333
627.8,0.747463
629.8,0.771221
631.8,0.752819
633.8,0.784771
635.8,0.799634
637.8,0.81442
639.7,0.790814
641.7,0.787991
643.7,0.775402
645.6,0.773571
647.6,0.715938
649.5,0.716838
651.5,0.728298
653.4,0.721065
655.4,0.665461
657.3,0.696544
659.3,0.718456
661.2,0.71635
663.2,0.709117
665.1,0.690669
667.1,0.678828
669.1,0.678813
671.1,0.65449
673,0.655604
675,0.633661
677,0.631632
679,0.629679
681,0.608957
683,0.605982
684.9,0.56556
686.9,0.343893
688.9,0.439429
690.9,0.47837
692.9,0.472099
694.9,0.476112
696.8,0.492576
698.8,0.492927
700.8,0.488624
702.8,0.525704
704.8,0.537514
706.8,0.556954
708.6,0.545541
710.5,0.555032
712.4,0.526406
714.3,0.507927
716.2,0.39881
718.1,0.340261
720,0.382101
721.9,0.416327
723.7,0.361563
725.6,0.357916
727.5,0.378851
729.4,0.380087
731.3,0.407263
733.2,0.420874
735.1,0.411673
737,0.42002
738.9,0.416159
740.8,0.40528
742.8,0.407736
744.9,0.398123
746.9,0.390951
749,0.390249
751.1,0.364401
753.1,0.365743
755.2,0.336202
757.3,0.28542
759.3,0.0704356
761.4,0.0900893
763.4,0.0978408
765.5,0.194018
767.6,0.267155
769.6,0.280064
771.7,0.295949
773.8,0.294636
775.8,0.285924
777.9,0.277119
780,0.280339
782,0.273136
784.1,0.258076
786.1,0.253376
788.2,0.231067
790.3,0.225895
792.3,0.226993
794.4,0.21825
796.4,0.20737
798.4,0.196414
800.4,0.19826
802.4,0.18471
804.4,0.188128
806.4,0.181064
808.3,0.179614
810.3,0.165148
812.3,0.146487
814.3,0.123598
816.3,0.10425
818.3,0.0937972
820.3,0.101808
822.3,0.105272
824.3,0.0925154
826.3,0.105715
828.3,0.106722
830.2,0.10518
832.2,0.0955673
834.2,0.0975357
836.2,0.101274
838.2,0.105898
840.2,0.10248
842.2,0.10425
844.2,0.0990311
846.2,0.100175
848.2,0.0977493
850.1,0.0991684
852.1,0.0876173
854.1,0.0856031
856.1,0.0737469
858.1,0.0803998
860.1,0.0864729
862.1,0.0796521
864.1,0.0749523
866.1,0.0721447
868.1,0.0780652
870.1,0.067155
872.1,0.0728618
874,0.0661326
876,0.0661021
878,0.0621347
880,0.0596017
882,0.0609903
884,0.0591897
886,0.0586862
888,0.0560006
890,0.0545815
892,0.0491035
893.9,0.0529946
895.9,0.0433356
897.9,0.0416266
899.9,0.0391089